{
  "resourceType": "Bundle",
  "type": "batch",
  "entry": [{
    "request": {
      "method": "PUT",
      "url": "Organization/11b7a2ba-17a4-4cec-a6f7-c664ba560915"
    },
    "resource": {
      "id": "11b7a2ba-17a4-4cec-a6f7-c664ba560915",
      "text": {
        "status": "additional",
	"div": "<div xmlns=\"http://www.w3.org/1999/xhtml\">>Airedale Hospital</div>"
      },
      "resourceType": "Organization",
      "name": "Airedale Hospital"
    }
  }, {
    "request": {
      "method": "PUT",
      "url": "Organization/30fcc0e2-4705-4dd3-b020-d900672a286c"
    },
    "resource": {
      "id": "30fcc0e2-4705-4dd3-b020-d900672a286c",
      "text": {
        "status": "additional",
	"div": "<div xmlns=\"http://www.w3.org/1999/xhtml\">Bradford Hospital</div>"
      },
      "resourceType": "Organization",
      "name": "Bradford Hospital"
    }
  }, {
    "request": {
      "method": "PUT",
      "url": "Practitioner/b60de836-3dfd-4172-90fd-bc1efb4b0adb"
    },
    "resource": {
      "id": "b60de836-3dfd-4172-90fd-bc1efb4b0adb",
      "text": {
        "status": "additional",
	"div": "<div xmlns=\"http://www.w3.org/1999/xhtml\">Sue Williams, a team professional at Airedale Hospital</div>"
      },
      "resourceType": "Practitioner",
      "name": [
        {
          "use": "official",
          "family": "Williams",
          "given": [
            "Sue"
          ],
          "suffix": [
            "MD"
          ]
        }
      ],
      "gender": "female",
      "birthDate": "1975-12-07"
    }
  }, {
    "request": {
      "method": "PUT",
      "url": "Practitioner/387f7b1a-95d2-440e-8804-470fd50573fc"
    },
    "resource": {
      "id": "387f7b1a-95d2-440e-8804-470fd50573fc",
      "text": {
        "status": "additional",
	"div": "<div xmlns=\"http://www.w3.org/1999/xhtml\">Tina Jansen, an individual professional</div>"
      },
      "resourceType": "Practitioner",
      "name": [
        {
          "use": "official",
          "family": "Jansen",
          "given": [
            "Tina"
          ],
          "suffix": [
            "MD"
          ]
        }
      ],
      "gender": "female",
      "birthDate": "1975-12-07"
    }
  }, {
    "request": {
      "method": "PUT",
      "url": "PractitionerRole/127c747d-5455-43e6-9d65-10948da03126"
    },
    "resource": {
      "id": "127c747d-5455-43e6-9d65-10948da03126",
      "text": {
        "status": "additional",
	"div": "<div xmlns=\"http://www.w3.org/1999/xhtml\">Sue Williams' professional link to Airedale Hospital</div>"
      },
      "resourceType": "PractitionerRole",
      "active": true,
      "period": {
        "start": "2012-01-01"
      },
      "practitioner": {
        "reference": "Practitioner/b60de836-3dfd-4172-90fd-bc1efb4b0adb",
        "display": "Dr Sue Williams"
      },
      "organization": {
        "reference": "Organization/11b7a2ba-17a4-4cec-a6f7-c664ba560915",
	"display": "airedale"
      },
      "code": [
        {
          "coding": [
            {
              "system": "http://terminology.hl7.org/CodeSystem/v2-0286",
              "code": "RP"
            }
          ]
        }
      ],
      "specialty": [
        {
          "coding": [
            {
              "system": "http://snomed.info/sct",
              "code": "408443003",
              "display": "General medical practice"
            }
          ]
        }
      ]
    }
  },{
    "request": {
      "method": "PUT",
      "url": "Patient/8c455d7a-fe6b-4e4f-9144-66fbc945b5de"
    },
    "resource": {
      "resourceType": "Patient",
      "id": "8c455d7a-fe6b-4e4f-9144-66fbc945b5de",
      "text": {
        "status": "additional",
	"div": "<div xmlns=\"http://www.w3.org/1999/xhtml\">Patient Carol</div>"
      },
      "name": [{
        "use": "official",
	"family": "Walker",
	"given": ["Carol"]
      }],
      "gender": "female",
      "birthDate": "1980-01-01",
      "deceasedBoolean": false
    }
  },{
    "request": {
      "method": "PUT",
      "url": "Patient/1401dfb4-7740-4051-a534-7ff2d25ced75"
    },
    "resource": {
      "resourceType": "Patient",
      "id": "1401dfb4-7740-4051-a534-7ff2d25ced75",
      "text": {
        "status": "additional",
	"div": "<div xmlns=\"http://www.w3.org/1999/xhtml\">Patient Daniel</div>"
      },
      "name": [{
        "use": "official",
	"family": "Johnson",
	"given": ["Daniel"]
      }],
      "gender": "male",
      "birthDate": "1980-01-02",
      "deceasedBoolean": false
    }
  },{
    "request": {
      "method": "PUT",
      "url": "Patient/666a2a30-a142-4929-ac88-27243e602c01"
    },
    "resource": {
      "resourceType": "Patient",
      "id": "666a2a30-a142-4929-ac88-27243e602c01",
      "text": {
        "status": "additional",
	"div": "<div xmlns=\"http://www.w3.org/1999/xhtml\">Patient Abe, who has sharing disabled</div>"
      },
      "name": [{
        "use": "official",
	"family": "Nisham",
	"given": ["Abe"]
      }],
      "gender": "male",
      "birthDate": "1980-02-02",
      "deceasedBoolean": false,
      "extension": [{
        "url": "http://fhir.patientsknowbest.com/structuredefinition/sharing-disabled",
	"valueBoolean": true
      }]
    }
  },{
    "request": {
      "method": "PUT",
      "url": "Patient/9cd3b4b3-3fb1-4ef7-b16d-a2a2fad57667"
    },
    "resource": {
      "resourceType": "Patient",
      "id": "9cd3b4b3-3fb1-4ef7-b16d-a2a2fad57667",
      "text": {
        "status": "additional",
	"div": "<div xmlns=\"http://www.w3.org/1999/xhtml\">Patient Zenu, who is access frozen</div>"
      },
      "name": [{
        "use": "official",
	"family": "Zog",
	"given": ["Zenu"]
      }],
      "gender": "male",
      "birthDate": "1980-02-02",
      "deceasedBoolean": false,
      "extension": [{
        "url": "http://fhir.patientsknowbest.com/structuredefinition/access-frozen",
	"valueBoolean": true
      }]
    }
  },{
    "request": {
      "method": "PUT",
      "url": "Consent/85dae4b6-8a4f-46cc-9116-2e510670e18b"
    },
    "resource": {
      "resourceType": "Consent",
      "id": "85dae4b6-8a4f-46cc-9116-2e510670e18b",
      "text": {
        "status": "additional",
	"div": "<div xmlns=\"http://www.w3.org/1999/xhtml\">Carol grants all consents to Airedale Hospital</div>"
      },
      "provision": {
        "type": "deny",
        "actor": [{
          "reference": {
            "display": "Airedale Hospital",
            "reference": "Organization/11b7a2ba-17a4-4cec-a6f7-c664ba560915"
          },
          "role": {
            "coding": [{
              "code": "CONSENTER",
              "system": "http://hl7.org/fhir/v3/RoleCode"
            }]
          }
        }],
        "except": [{
          "securityLabel": [{
            "code": "GENERAL_HEALTH",
            "system": "http://fhir.patientsknowbest.com/codesystem/privacy-label"
          }],
          "type": "permit"
        },{
          "securityLabel": [{
            "code": "MENTAL_HEALTH",
            "system": "http://fhir.patientsknowbest.com/codesystem/privacy-label"
          }],
          "type": "permit"
        },{
          "securityLabel": [{
            "code": "SEXUAL_HEALTH",
            "system": "http://fhir.patientsknowbest.com/codesystem/privacy-label"
          }],
          "type": "permit"
        },{
          "securityLabel": [{
            "code": "SOCIAL_CARE",
            "system": "http://fhir.patientsknowbest.com/codesystem/privacy-label"
          }],
          "type": "permit"
        }]
      },
      "patient": {
        "display": "Carol Walker",
        "reference": "Patient/8c455d7a-fe6b-4e4f-9144-66fbc945b5de"
      },
      "policy": [{
          "authority": "http://www.patientsknowbest.com"
      }],
      "resourceType": "Consent",
      "status": "active"
    }
  },{
    "request": {
      "method": "PUT",
      "url": "Consent/2c8b3e64-e3cf-4007-9097-2f36533b1fac"
    },
    "resource": {
      "resourceType": "Consent",
      "id": "2c8b3e64-e3cf-4007-9097-2f36533b1fac",
      "text": {
        "status": "additional",
	"div": "<div xmlns=\"http://www.w3.org/1999/xhtml\">Daniel grants General and Mental Health consents to Airedale Hospital</div>"
      },
      "actor": [{
        "reference": {
          "display": "Airedale Hospital",
          "reference": "Organization/11b7a2ba-17a4-4cec-a6f7-c664ba560915"
        },
        "role": {
          "coding": [{
            "code": "CONSENTER",
            "system": "http://hl7.org/fhir/v3/RoleCode"
          }]
        }
      }],
      "except": [{
        "securityLabel": [{
          "code": "GENERAL_HEALTH",
          "system": "http://fhir.patientsknowbest.com/codesystem/privacy-label"
        }],
        "type": "permit"
      },{
        "securityLabel": [{
          "code": "MENTAL_HEALTH",
          "system": "http://fhir.patientsknowbest.com/codesystem/privacy-label"
        }],
        "type": "permit"
      }],
      "patient": {
        "display": "Daniel Johnson",
        "reference": "Patient/1401dfb4-7740-4051-a534-7ff2d25ced75"
      },
      "policy": [
        {
          "authority": "http://www.patientsknowbest.com"
        }
      ],
      "resourceType": "Consent",
      "status": "active"
      }
    }
  ]
}
